File: data-release/xrd_measurements/xrd_measurement_TaCr2O6.dat
5 0.02 90
133
197
195
153
158
142
165
163
163
152
137
130
117
137
130
135
140
132
110
135
82
123
120
167
103
118
113
125
133
93
115
113
133
100
108
83
107
102
108
113
108
118
103
103
117
92
135
82
103
108
85
125
95
110
113
102
90
115
85
112
107
73
87
80
105
87
127
97
98
102
88
122
88
80
100
108
93
107
93
97
100
107
108
103
102
112
102
90
117
98
102
115
148
73
117
98
132
130
117
107
92
98
88
117
112
115
125
112
110
95
98
110
98
140
132
130
113
100
82
123
120
103
143
110
118
127
135
113
123
137
117
127
150
115
132
110
132
107
102
92
105
97
143
160
97
145
148
132
143
155
117
148
143
137
158
135
115
123
118
140
167
137
137
118
168
143
107
140
150
117
160
148
168
113
132
145
165
147
115
148
112
162
182
162
140
147
147
125
143
158
168
153
162
143
192
152
178
153
117
160
188
130
150
155
188
168
200
177
187
178
150
215
165
147
188
172
182
188
163
190
193
168
168
190
205
172
168
162
158
200
208
187
205
192
198
208
202
205
182
197
218
198
222
218
220
202
195
220
215
237
230
220
173
195
212
193
208
215
228
238
223
193
205
220
222
222
198
207
223
227
257
240
208
213
193
228
232
242
253
215
195
218
232
238
230
175
195
227
238
275
202
237
257
253
212
222
182
217
235
220
215
250
232
222
223
233
210
257
203
223
245
235
233
228
215
238
202
215
250
245
230
238
240
232
302
255
273
247
187
278
247
220
215
225
210
250
230
248
233
240
223
220
208
233
218
275
237
265
243
220
228
233
197
223
265
215
230
230
262
252
247
257
313
358
458
645
1273
2178
2995
2523
1157
405
288
265
255
233
225
188
220
223
207
207
207
203
205
217
195
232
188
213
223
193
215
207
188
210
202
223
212
230
232
207
230
223
162
210
202
208
177
193
218
193
198
213
202
220
210
187
193
238
225
178
188
202
193
200
187
205
195
197
213
213
195
195
193
210
200
155
173
193
197
177
195
183
195
198
220
202
207
165
212
170
160
197
215
188
198
198
183
170
203
160
188
187
175
195
162
162
228
182
223
163
188
170
170
257
288
287
182
207
178
197
163
160
157
188
185
182
167
145
178
162
180
210
190
192
205
170
220
235
272
395
573
982
1600
2467
2380
1527
805
357
265
213
193
172
172
200
207
178
213
247
255
230
203
175
180
165
140
162
192
157
170
133
163
167
147
155
112
158
148
157
145
163
132
143
142
187
187
180
143
137
162
190
178
157
180
165
190
190
255
400
592
915
975
510
380
188
177
197
150
178
173
155
172
178
168
148
160
170
202
160
177
167
137
175
168
195
180
195
223
273
300
347
313
262
167
192
167
157
155
128
145
160
160
148
153
163
180
200
242
230
188
158
155
167
142
173
163
163
182
157
160
155
182
157
177
190
162
177
173
173
170
175
170
162
162
172
162
180
187
207
218
228
212
202
228
180
202
170
175
177
215
183
185
200
155
197
163
152
183
182
142
163
168
158
195
183
157
197
225
158
162
210
142
160
163
177
185
157
177
215
182
178
183
203
155
163
160
183
138
185
183
162
207
185
148
185
185
158
155
180
188
188
148
175
168
178
165
170
183
217
172
180
177
160
163
178
163
188
200
160
185
162
182
185
148
180
190
172
188
192
185
193
180
197
178
178
205
213
193
200
180
160
200
177
180
195
147
207
190
185
213
180
215
255
270
192
228
197
195
203
202
162
198
175
170
160
180
153
183
177
202
208
197
142
190
182
200
203
183
178
180
203
200
160
173
170
177
185
213
187
193
190
183
200
165
228
173
188
190
220
218
358
427
600
947
1593
2522
2452
1695
1393
872
373
272
213
235
222
213
182
197
202
197
180
178
218
208
182
212
200
210
205
332
312
283
258
252
192
183
190
205
173
182
182
210
252
265
347
517
773
862
607
513
430
317
227
193
235
188
177
197
192
197
160
172
190
175
160
187
172
182
180
205
195
168
175
203
173
205
180
195
175
178
188
212
197
203
192
200
190
183
168
215
202
218
193
233
180
190
212
183
205
162
188
193
182
170
152
168
135
187
167
192
200
167
165
182
203
197
215
180
193
160
195
208
178
197
162
135
207
177
227
170
235
210
272
315
390
363
392
332
310
265
193
202
170
183
190
233
193
195
205
192
180
178
187
188
187
153
220
200
190
178
192
168
170
238
203
257
333
507
728
692
465
497
427
320
217
217
203
227
205
175
120
172
197
188
200
182
140
170
180
203
168
177
187
213
193
178
197
198
237
248
238
207
200
215
183
177
188
163
148
182
198
180
185
177
187
183
190
162
185
163
165
173
160
190
207
190
243
165
147
182
178
182
180
177
172
168
167
170
185
203
202
225
250
288
400
588
873
857
733
818
838
788
530
488
423
332
275
188
200
197
193
190
187
208
150
188
178
173
178
170
162
175
153
172
190
173
190
183
160
160
205
170
162
168
167
180
165
165
140
203
203
202
142
185
157
138
180
175
200
193
177
218
200
213
205
215
177
178
180
167
185
163
172
187
187
188
168
185
192
187
175
175
218
190
158
162
172
197
167
183
183
213
212
162
168
215
187
210
197
192
185
170
178
187
205
210
200
193
195
177
195
183
185
208
185
238
175
198
238
305
347
425
377
288
295
272
292
235
228
162
158
192
165
220
163
163
168
167
203
230
198
183
188
180
170
177
207
185
165
195
180
170
202
190
162
223
190
182
205
163
188
153
183
200
163
178
163
167
185
203
170
195
192
198
190
205
158
198
205
187
153
183
153
193
172
167
173
165
198
182
175
183
168
215
198
160
175
192
182
168
190
192
168
163
185
178
157
207
178
200
173
150
193
183
197
202
193
198
202
190
240
227
292
397
537
630
417
317
363
383
283
223
213
185
158
187
218
198
200
193
215
198
163
198
218
158
167
173
183
183
212
142
167
167
217
242
213
260
287
298
305
215
227
242
250
210
232
160
160
205
218
207
178
190
188
138
207
173
193
213
190
210
160
208
172
203
217
200
188
202
157
215
178
152
190
198
222
202
185
177
150
213
163
167
190
207
197
198
175
175
185
197
207
197
183
153
200
185
185
172
218
168
180
195
163
208
195
187
207
220
210
247
342
388
422
382
315
313
327
267
277
223
192
195
165
183
183
173
177
178
158
180
170
177
177
192
183
215
152
250
207
207
277
333
380
300
232
237
258
277
192
203
192
198
205
177